Folder: Divers

Note: isoTv 3000K.txt
0 0.004
0.00244 0.00405
0.00844 0.00414
0.0124 0.00419
0.0164 0.00424
0.0214 0.00428
0.0294 0.00433
0.0304 0.00433
0.0394 0.00438
0.0404 0.00438
0.0414 0.00438
0.0424 0.00438
0.0434 0.00438
0.0444 0.00438
0.051 0.00443
0.052 0.00443
0.053 0.00443
0.054 0.00443
0.055 0.00443
0.056 0.00443
0.057 0.00443
0.058 0.00443
0.059 0.00443
0.06 0.00443
0.061 0.00443
0.062 0.00443
0.063 0.00443
0.064 0.00443
0.065 0.00443
0.066 0.00443
0.067 0.00443
0.068 0.00443

Note: README.md
[![Binder](https://mybinder.org/badge_logo.svg)](https://mybinder.org/v2/gh/aboulle/Divers/master?filepath=%2Fipywidgets_linuxfr.ipynb)

File: xrd.uxd
;content of D:\DATA\ab2020\Catalin\MnZnFeO4\100\Phi_MnZnFe2O4_620.raw - (Diffrac Plus V4 file)
_FILEVERSION = 3
_SAMPLE = Commander Sample ID
_+SAMPLE
_USER = Lab Manager
_GONIOMETER_CODE = 20
_STAGE_CODE = 4
; Goniometer : D8 theta/2theta, stage : Open eulerian craddle
_SAMPLE_CHANGER_CODE = 0
_ATTACHMENTS_CODE = 0
_GONIOMETER_RADIUS = 390
_FIXED_DETSLIT = 0
_MONOCHROMATOR = 0
; Incident beam monochromator : None
_BETA_FILTER = N
_ANALYZER_CODE = 0
; Received beam analyzer : None
_DATEMEASURED = 20-Jan-2020 15:38:08
_RUNTIME = 3.848059
_WL_UNIT = A
_WL1 = 1.5406
_WL2 = 1.54439
_WL3 = 1.39222
_WLRATIO = 0.5
_ANODE = Cu
_V4_INF_USER = Lab Manager
_V4_INF_SAMPLEID = Commander Sample ID
_V4_INF_CREATOR = V5Converter
_V4_INF_CREATOR_VERSION = 3.3.50.0
_V4_INF_SUBSTRATE = Si (no database)
_V4_INF_LAYER = Si (no database)

; Data for range 1
_DRIVE = COUPLED
_STEPTIME = 0.5
_STEPSIZE = 1
_STEPMODE = S
_START = -180
_THETA = 16.8276
_2THETA = 69.941
_KHI = 0.03
_PHI = -180
_X = -0.093
_Y = -0.153
_Z = 0.5965
_DETECTORSLIT = out
_AUX1 = 0.099
_AUX2 = 0.388
_TIMESTARTED = 0
_KV = 40
_MA = 40
_RANGE_WL = 1.5406
_3DPLANE = 0
_V4_PSD2THETA = 9999
_V4_PSDCHANNEL1 = 0
_V4_PSDAPERTURE = 14.325
_V4_PSDTYPE = 5
_V4_PSDFIXED = 0
_V4_COUNTERS_MASK = 1
_V4_DRIVES_MASK = 0
_V4_ENCODERS_MASK = 0
_2THETACOUNTS = 1
; 2THETA	Cnt2_D1
-180	4129
-178	2764
-176	1387
-174	358
-172	155
-170	146
-168	170
-166	126
-164	145
-162	160
-160	145
-158	137
-156	135
-154	136
-152	153
-150	113
-148	141
-146	136
-144	126
-142	110
-140	110
-138	112
-136	111
-134	105
-132	116
-130	109
-128	138
-126	130
-124	104
-122	117
-120	94
-118	114
-116	117
-114	107
-112	96
-110	113
-108	117
-106	114
-104	112
-102	106
-100	122
-98	119
-96	484
-94	1546
-92	2330
-90	2452
-88	1708
-86	686
-84	164
-82	129
-80	108
-78	130
-76	129
-74	112
-72	125
-70	90
-68	108
-66	114
-64	89
-62	100
-60	118
-58	100
-56	128
-54	108
-52	125
-50	114
-48	106
-46	109
-44	133
-42	123
-40	125
-38	140
-36	163
-34	138
-32	128
-30	161
-28	155
-26	157
-24	159
-22	159
-20	134
-18	141
-16	171
-14	169
-12	165
-10	151
-8.000000	275
-6.000000	1058
-4.000000	2550
-2.000000	3844
0.000000	4484
2.000000	3347
4.000000	1713
6.000000	510
8.000000	146
10	141
12	164
14	137
16	151
18	132
20	120
22	157
24	115
26	140
28	148
30	136
32	129
34	125
36	171
38	159
40	133
42	129
44	126
46	140
48	114
50	123
52	108
54	128
56	109
58	141
60	118
62	128
64	129
66	103
68	100
70	102
72	116
74	103
76	122
78	115
80	88
82	108
84	374
86	1450
88	2566
90	2757
92	1882
94	681
96	143
98	110
100	109
102	103
104	97
106	124
108	108
110	90
112	111
114	114
116	116
118	101
120	120
122	127
124	115
126	99
128	101
130	124
132	132
134	110
136	135
138	149
140	122
142	151
144	140
146	136
148	155
150	143
152	156
154	155
156	126
158	166
160	139
162	140
164	157
166	135
168	141
170	158
172	327
174	1067
176	2619
178	4200
180	3928